Folder: BatteryRobot/src/main/utils/PStat

File: galvanostatic_eis.csv
# point,freq,zreal,zimag,zmod,zphz,zsig,Idc,Vdc,ie_range,gain,vmod,vphz,vsig,vthd,imod,iphz,isig,ithd,zreal_drift,zimag_drift,zmod_drift,zphz_drift
0.000000000000000000e+00,100020,33108.9,-4826.43,33458.9,-8.29382,1,2.60402e-07,0.872574,8,0.0134528,0.0423416,79.3287,0.00248592,0.0563444,1.26548e-06,87.6226,1e-05,0.0643371,33108.9,-4826.43,33458.9,-8.29382
1,79511.7,33582.9,-4181.88,33842.2,-7.09818,1,2.4344e-07,0.876017,8,0.0168296,0.0535765,165.868,0.00371611,0.0655796,1.58313e-06,172.966,1e-05,0.0655458,33582.9,-4181.88,33842.2,-7.09818
2,63105.5,33904.1,-3729.2,34108.6,-6.27687,1,2.23126e-07,0.91434,8,0.0210199,0.067443,141.258,0.00485912,0.0701817,1.9773e-06,147.535,1e-05,0.0764502,33904.1,-3729.2,34108.6,-6.27687
3,50214.8,34023.6,-3409.75,34194.1,-5.7229,1,1.87718e-07,0.896751,8,0.0262976,0.0845879,-165.921,0.00671528,0.0770355,2.47376e-06,-160.198,1e-05,0.0824445,34023.6,-3409.75,34194.1,-5.7229
4,39902.3,34578.4,-2576.56,34674.3,-4.26144,1,1.89126e-07,0.934651,8,0.0325866,0.106289,-26.5529,0.00913279,0.0847517,3.06535e-06,-22.2915,1e-05,0.0869176,34578.4,-2576.56,34674.3,-4.26144
5,31699.2,34692.1,-2671.43,34794.8,-4.40333,1,1.69917e-07,0.919426,8,0.0408236,0.133618,-134.546,0.0110881,0.0816268,3.84019e-06,-130.143,1e-05,0.0821313,34692.1,-2671.43,34794.8,-4.40333
6,25136.7,34909.7,-2453.95,34995.9,-4.02095,1,1.86491e-07,0.907927,8,0.051151,0.168389,51.0788,0.013996,0.0818825,4.81167e-06,55.0997,1e-05,0.0904155,34909.7,-2453.95,34995.9,-4.02095
7,19980.5,35110,-2274.21,35183.6,-3.7061,1,1.61757e-07,0.930358,8,0.0639762,0.211738,85.9837,0.0182334,0.0850596,6.0181e-06,89.6898,1e-05,0.0841021,35110,-2274.21,35183.6,-3.7061
8,15878.9,35314.9,-2214.15,35384.2,-3.58759,1,1.62492e-07,0.91508,8,0.079991,0.266252,-89.1696,0.0217617,0.0806627,7.52459e-06,-85.582,1e-05,0.083321,35314.9,-2214.15,35384.2,-3.58759
9,12597.7,35594.1,-2071.73,35654.3,-3.3311,1,1.7106e-07,0.960667,8,0.100035,0.33551,-165.113,0.0272708,0.0802687,9.4101e-06,-161.782,1e-05,0.0832066,35594.1,-2071.73,35654.3,-3.3311
10,10019.5,35701.2,-2061.83,35760.7,-3.3053,1,1.82783e-07,0.977507,8,0.125294,0.421479,64.3798,0.0339045,0.0795207,1.17861e-05,67.6851,1.00188e-06,0.0830682,35701.2,-2061.83,35760.7,-3.3053
11,7928.24,35912.1,-2095.34,35973.2,-3.33921,1,1.71439e-07,0.957813,8,0.182777,0.524773,26.265,0.0409409,0.0770873,1.45879e-05,29.6043,1.18522e-06,0.0800367,35912.1,-2095.34,35973.2,-3.33921
12,6307.87,36146,-2197.62,36212.7,-3.47921,1,1.36734e-07,0.93126,8,0.303559,0.601427,-40.2015,0.0346614,0.0569366,1.66082e-05,-36.7223,1.00874e-06,0.0589001,36146,-2197.62,36212.7,-3.47921
13,5034.72,36408.5,-2375.46,36485.9,-3.73295,1,1.09222e-07,0.926206,8,0.472071,0.5674,-9.93475,0.0035622,0.00607625,1.55512e-05,-6.20179,1e-05,0.00649692,36408.5,-2375.46,36485.9,-3.73295
14,3993.06,36639.9,-2486.18,36724.1,-3.88183,1,8.28126e-08,0.930117,8,0.587929,0.457372,8.44463,0.000924033,0.000416637,1.24543e-05,12.3265,1e-05,0.00154624,36639.9,-2486.18,36724.1,-3.88183
15,3144.05,36907.4,-2664.74,37003.5,-4.12963,1,7.57276e-08,0.930674,8,0.675326,0.425041,50.9645,0.00109439,0.00177269,1.14865e-05,55.0942,1e-05,0.00186763,36907.4,-2664.74,37003.5,-4.12963
16,2519.53,37193,-2900.77,37305.9,-4.45961,1,7.59103e-08,0.925588,8,0.74645,0.412349,-2.44787,0.00123401,0.00312581,1.10532e-05,2.01175,1e-05,0.00228072,37193,-2900.77,37305.9,-4.45961
17,2000.76,37502.5,-3157.52,37635.2,-4.81266,1,8.78663e-08,0.929338,8,0.809742,0.408264,26.973,0.000817087,0.00155997,1.08479e-05,31.7856,1e-05,0.00273574,37502.5,-3157.52,37635.2,-4.81266
18,1580.67,37839.4,-3446,37996,-5.20352,1,9.01845e-08,0.937547,8,0.862732,0.404825,88.4661,0.000530072,0.00247301,1.06544e-05,93.6696,1e-05,0.00305718,37839.4,-3446,37996,-5.20352
19,1253.63,38239.9,-3841.01,38432.3,-5.73584,1,7.78632e-08,0.935684,8,0.899619,0.400755,131.987,0.00142144,0.00375436,1.04276e-05,137.722,1e-05,0.00353862,38239.9,-3841.01,38432.3,-5.73584
20,1000.7,38671.5,-4270.66,38906.6,-6.30188,1,7.57569e-08,0.9352,8,0.928197,0.401426,17.1398,0.00228712,0.00540178,1.03177e-05,23.4417,1e-05,0.0049228,38671.5,-4270.66,38906.6,-6.30188
21,790.028,39184.4,-4778.67,39474.7,-6.95308,1,8.05368e-08,0.934922,8,0.94966,0.403875,-138.499,0.00320667,0.00748123,1.02312e-05,-131.546,1e-05,0.0042882,39184.4,-4778.67,39474.7,-6.95308
22,628.811,39743.6,-5334.43,40100,-7.64462,1,8.64448e-08,0.93427,8,0.963222,0.406727,80.466,0.00432303,0.0100346,1.01428e-05,88.1106,1e-05,0.00461333,39743.6,-5334.43,40100,-7.64462
23,502.232,39181.2,-7489.93,39890.6,-10.8222,1,8.51242e-08,0.943118,8,0.944198,0.391028,156.726,0.00342494,0.00837088,9.80249e-06,167.549,1e-05,0.00302489,39181.2,-7489.93,39890.6,-10.8222
24,400.152,40159.9,-7862.89,40922.4,-11.0778,1,7.77685e-08,0.947641,8,0.971821,0.421196,114.275,0.00564961,0.0131076,1.02926e-05,125.353,1e-05,0.00377815,40159.9,-7862.89,40922.4,-11.0778
25,315.505,41196.2,-8393.22,42042.5,-11.5157,1,7.65622e-08,0.946979,8,0.985748,0.42645,-153.908,0.00787218,0.0182395,1.01433e-05,-142.392,1e-05,0.00412233,41196.2,-8393.22,42042.5,-11.5157
26,252.016,42180.5,-9022.27,43134.6,-12.0735,1,7.83033e-08,0.944638,8,0.991392,0.433816,92.5521,0.0102733,0.0233936,1.00573e-05,104.626,1e-05,0.00432261,42180.5,-9022.27,43134.6,-12.0735
27,200.321,43331.9,-9923.79,44453.7,-12.8993,1,7.81795e-08,0.931973,8,0.993055,0.445283,70.8926,0.0129831,0.0288119,1.00168e-05,83.7919,1e-05,0.00427793,43331.9,-9923.79,44453.7,-12.8993
28,158.006,44696.8,-11138.5,46063.8,-13.9932,1,7.32396e-08,0.911021,8,0.991274,0.459812,116.306,0.0160364,0.034466,9.98207e-06,130.3,1e-05,0.00417554,44696.8,-11138.5,46063.8,-13.9932
29,125.558,45682.1,-11972.3,47224.9,-14.6857,1,7.89521e-08,0.922073,8,0.985577,0.469535,-118.979,0.0187672,0.0394632,9.94252e-06,-104.293,1e-05,0.00401741,45682.1,-11972.3,47224.9,-14.6857
30,99.734,46565.9,-12754.7,48281.1,-15.318,1,8.26134e-08,0.943058,8,0.968751,0.474569,57.7409,0.0212894,0.0443089,9.82928e-06,73.0589,1e-05,0.00384827,46565.9,-12754.7,48281.1,-15.318
31,79.4492,47366.3,-13266.3,49189.1,-15.6464,1,7.3725e-08,0.973388,8,0.990945,0.503159,-112.032,0.0263287,0.051066,1.02291e-05,-96.3854,1e-05,0.00348861,47366.3,-13266.3,49189.1,-15.6464
32,62.9195,48720.3,-14907.2,50949.9,-17.0128,1,7.46196e-08,0.965779,8,0.991885,0.509983,-111.504,0.0295211,0.0565188,1.00095e-05,-94.4912,1e-05,0.00309065,48720.3,-14907.2,50949.9,-17.0128
33,49.867,50328.8,-16782.2,53053.1,-18.441,1,7.57149e-08,0.955528,8,0.993162,0.531214,-112.9,0.0341636,0.0635438,1.00129e-05,-94.4591,1e-05,0.00282772,50328.8,-16782.2,53053.1,-18.441
34,39.7246,51952.9,-18990.1,55314.8,-20.0786,1,8.5767e-08,0.944093,8,0.994021,0.553627,-113.363,0.0394428,0.0703862,1.00087e-05,-93.2844,1e-05,0.00264977,51952.9,-18990.1,55314.8,-20.0786
35,31.6723,53750.1,-21623.6,57936.6,-21.9149,1,8.38683e-08,0.929008,8,0.994494,0.579642,-114.269,0.0458921,0.0782318,1.00048e-05,-92.3536,1e-05,0.00238131,53750.1,-21623.6,57936.6,-21.9149
36,25.2016,55736.1,-24611,60928,-23.8245,1,9.03601e-08,0.914962,8,0.994977,0.609576,-115.447,0.0545506,0.088417,1.00049e-05,-91.6227,1e-05,0.00212905,55736.1,-24611,60928,-23.8245
37,20.0321,58111.8,-28521,64733.5,-26.1416,1,8.32259e-08,0.888748,8,0.995528,0.647694,-117.163,0.0659494,0.100595,1.00055e-05,-91.0218,1e-05,0.00219342,58111.8,-28521,64733.5,-26.1416
38,15.7828,60972.8,-33514.2,69576.4,-28.7957,1,8.73373e-08,0.853249,8,0.995968,0.696071,-119.329,0.0806925,0.114529,1.00044e-05,-90.533,1e-05,0.00219087,60972.8,-33514.2,69576.4,-28.7957
39,12.6008,64073.7,-39173.1,75099.8,-31.4406,1,8.51477e-08,0.809119,8,0.996287,0.751238,-121.604,0.0958507,0.126065,1.00032e-05,-90.163,1e-05,0.00194706,64073.7,-39173.1,75099.8,-31.4406
40,9.9734,67543.4,-45215.4,81280.7,-33.7994,1,8.35021e-08,0.760722,8,0.996693,0.813138,-123.658,0.108858,0.132285,1.00041e-05,-89.8583,1e-05,0.001878,67543.4,-45215.4,81280.7,-33.7994
41,7.97194,71081.5,-50809.1,87373.6,-35.5572,1,8.52962e-08,0.714394,8,0.997092,0.874086,-125.179,0.11776,0.133129,1.0004e-05,-89.6221,1e-05,0.00164534,71081.5,-50809.1,87373.6,-35.5572
42,6.2751,75127.6,-56305.5,93885.4,-36.8503,1,7.98159e-08,0.667618,8,0.997534,0.93927,-126.269,0.125312,0.131836,1.00044e-05,-89.4191,1e-05,0.00139771,75127.6,-56305.5,93885.4,-36.8503
43,5.01337,79242.3,-61133.4,100083,-37.6493,1,7.79695e-08,0.621662,8,0.998043,1.00134,-126.923,0.130612,0.128896,1.00051e-05,-89.2735,1e-05,0.00124517,79242.3,-61133.4,100083,-37.6493
44,3.98597,83652.6,-65367.1,106163,-38.0045,1,6.9361e-08,0.581097,8,0.998503,1.06212,-127.145,0.136618,0.127101,1.00046e-05,-89.1403,1e-05,0.0010775,83652.6,-65367.1,106163,-38.0045
45,3.17581,88113.8,-69004.3,111918,-38.0655,1,6.90123e-08,0.5484,8,0.998818,1.11953,-127.105,0.144104,0.127193,1.00032e-05,-89.0392,1e-05,0.00095855,88113.8,-69004.3,111918,-38.0655
46,2.5161,91407.7,-73120.9,117056,-38.6578,1,9.65018e-08,0.533681,8,0.967564,1.13393,-171.554,0.0925262,0.0806339,9.68709e-06,-132.896,1e-05,0.000439092,91407.7,-73120.9,117056,-38.6578
47,1.99553,94995.8,-74761.9,120886,-38.2028,1,7.22741e-08,0.511562,8,0.986777,1.23287,-161.191,0.124087,0.099461,1.01986e-05,-122.988,1e-05,0.000433539,94995.8,-74761.9,120886,-38.2028
48,1.58791,100093,-79069.1,127556,-38.3071,1,7.80277e-08,0.49131,8,0.994486,1.28553,-153.84,0.150594,0.115765,1.00781e-05,-115.533,1e-05,0.000366741,100093,-79069.1,127556,-38.3071
49,1.25805,104633,-82860.3,133469,-38.3761,1,7.89366e-08,0.483931,8,0.997699,1.339,-148.086,0.178903,0.132033,1.00323e-05,-109.71,1e-05,0.000588424,104633,-82860.3,133469,-38.3761
50,0.997765,108434,-86499,138708,-38.5798,1,8.3088e-08,0.499374,8,0.998983,1.38887,-143.795,0.207428,0.147587,1.00129e-05,-105.215,1e-05,0.000446204,108434,-86499,138708,-38.5798