Folder: BatteryRobot/MainProject/src/main/utils/PStat

File: eis.csv
# Freq(Hz), Zreal (ohm), Zimag (ohm)
1e+06,202.477,2.11504
630957,199.531,2.06171
398107,198.842,2.03772
251189,198.886,2.2155
158489,198.841,2.44006
100000,200.849,-35.223
63095.7,200.633,-20.3313
39810.7,200.586,-10.0075
25118.9,200.613,-1.84075
15848.9,200.659,5.84013
10000,204.507,-24.2877
6309.57,204.639,2.2478
3981.07,205.269,29.0989
2511.89,206.339,61.9781
1584.89,209.171,108.809
1000,216.077,177.493
630.957,233.229,284.456
398.107,253.892,446.982
251.189,353.063,685.391
158.489,575.2,1006.17
100,999.428,1334.3
63.0957,1645.87,1485.3
39.8107,2299.04,1368.7
25.1189,2760.18,1062.55
15.8489,3015.01,734.254
10,3129.07,483.811
6.30957,3177.95,309.886
3.98107,3197.68,198.357
2.51189,3202.3,156.17
1.58489,3211.54,97.7201
1,3214.21,60.8943
0.630957,3215.11,38.2913
0.398107,3215.43,24.1691
0.251189,3215.58,15.2433
0.158489,3215.66,9.58721
0.1,3215.69,6.06254