Folder: BatteryRobot/MainProject/src/main/res

File: consecutiveTests_1413_1_1.csv
# point,freq,zreal,zimag,zmod,zphz,zsig,Idc,Vdc,ie_range,gain,vmod,vphz,vsig,vthd,imod,iphz,isig,ithd,zreal_drift,zimag_drift,zmod_drift,zphz_drift
0.000000000000000000e+00,250020,4147.07,559.245,4184.61,7.68017,1,3.16468e-07,0.124931,8,0.102053,0.0042705,1.5385,0.000877451,0.165054,1.02053e-06,-6.14168,1e-05,0.197215,4147.07,559.245,4184.61,7.68017
2,157793,4057.46,332.188,4071.04,4.68042,1,4.80296e-07,0.369672,8,0.0625598,0.0239575,91.3621,0.0038238,0.151345,5.88487e-06,86.6817,1e-05,0.138475,4057.46,332.188,4071.04,4.68042
4,99550.8,4006.37,150.303,4009.19,2.1485,1,3.04683e-07,0.451939,8,0.0928694,0.0350244,-77.3479,0.00172052,0.0467813,8.73603e-06,-79.4964,1e-05,0.0455436,4006.37,150.303,4009.19,2.1485
6,62871.1,4012.71,33.7378,4012.85,0.481716,1,2.97689e-07,0.499806,8,0.161814,0.055421,162.143,0.00399298,0.0708399,1.38109e-05,161.661,9.84405e-07,0.0691015,4012.71,33.7378,4012.85,0.481716
8,39668,4034.16,-65.42,4034.69,-0.929057,1,1.79207e-07,0.492069,8,0.437487,0.0677007,35.4818,0.00203605,0.0286712,1.67797e-05,36.4108,1e-05,0.0308234,4034.16,-65.42,4034.69,-0.929057
10,25019.5,4062.94,-156.557,4065.95,-2.20668,1,1.22263e-07,0.492547,8,0.662762,0.0467751,148.774,0.00063823,0.0143735,1.15041e-05,150.981,1e-05,0.0159572,4062.94,-156.557,4065.95,-2.20668
12,15682.9,4102.88,-262.808,4111.29,-3.66505,1,1.05025e-07,0.494629,8,0.808707,0.0449054,96.3784,0.000665927,0.00153984,1.09225e-05,100.043,1e-05,0.00202892,4102.88,-262.808,4111.29,-3.66505
14,9895.83,4159.55,-392.866,4178.06,-5.39553,1,1.05201e-07,0.483978,8,0.899848,0.0439227,-3.51103,0.000450967,0.0131371,1.05127e-05,1.8845,1e-05,0.00250928,4159.55,-392.866,4178.06,-5.39553
16,6307.87,4229.43,-562.829,4266.71,-7.58008,1,1.09449e-07,0.472901,8,0.948754,0.0436146,74.6876,0.000550373,0.00180986,1.02221e-05,82.2677,1e-05,0.00256626,4229.43,-562.829,4266.71,-7.58008
18,3944.36,4339.95,-808.849,4414.68,-10.5573,1,1.54973e-07,0.467028,8,0.958946,0.0454068,69.1119,0.000559396,0.000695877,1.02854e-05,79.6692,1e-05,0.000775535,4339.95,-808.849,4414.68,-10.5573
20,2488.43,4478.88,-1127.31,4618.57,-14.1276,1,1.91154e-07,0.479287,8,0.981542,0.0465814,171.179,0.000590093,0.0125043,1.00857e-05,-174.693,1e-05,0.000964878,4478.88,-1127.31,4618.57,-14.1276
22,1582.03,4664.72,-1566.52,4920.73,-18.5632,1,1.65834e-07,0.48911,8,0.989882,0.0493511,120.331,0.000763188,0.00140836,1.00292e-05,138.894,1e-05,0.00106115,4664.72,-1566.52,4920.73,-18.5632
24,996.094,4939.26,-2204.25,5408.79,-24.0498,1,1.24749e-07,0.493541,8,0.993358,0.0541157,-15.0757,0.000558757,0.00207398,1.00052e-05,8.97417,1e-05,0.00133096,4939.26,-2204.25,5408.79,-24.0498
26,628.811,5319.67,-3099.76,6156.9,-30.2292,1,1.0739e-07,0.501224,8,0.997441,0.0616659,73.7634,0.000593217,0.00314787,1.00157e-05,103.993,1e-05,0.00106084,5319.67,-3099.76,6156.9,-30.2292
28,395.331,5652.51,-4547.22,7254.52,-38.8153,1,1.07654e-07,0.499817,8,0.988537,0.0740353,61.5796,0.000669319,0.00439726,1.02054e-05,100.395,1e-05,0.000478408,5652.51,-4547.22,7254.52,-38.8153
30,249.335,6529.82,-6297.18,9071.55,-43.9609,1,1.23422e-07,0.502051,8,0.999011,0.0909931,48.691,0.000869977,0.00839426,1.00306e-05,92.6519,1e-05,0.000864194,6529.82,-6297.18,9071.55,-43.9609
32,158.006,7800.78,-8840.9,11790.4,-48.5764,1,1.369e-07,0.480827,8,0.993751,0.117481,88.089,0.00166484,0.0134294,9.96407e-06,136.665,1e-05,0.00124128,7800.78,-8840.9,11790.4,-48.5764
34,99.734,9550.73,-11495.7,14945.5,-50.28,1,1.56632e-07,0.551974,8,0.990381,0.150329,-147.161,0.00398784,0.0256121,1.00584e-05,-96.8814,1e-05,0.00109183,9550.73,-11495.7,14945.5,-50.28
36,62.9195,11934.2,-15536.9,19591.3,-52.4716,1,1.15525e-07,0.554533,8,0.99125,0.195901,-145.828,0.00712233,0.0354277,9.99937e-06,-93.356,1e-05,0.000908101,11934.2,-15536.9,19591.3,-52.4716
38,39.7246,15474,-20447.6,25642.7,-52.8829,1,1.41273e-07,0.554168,8,0.993204,0.256578,-145.449,0.0136087,0.0523632,1.00059e-05,-92.5662,1e-05,0.000811688,15474,-20447.6,25642.7,-52.8829
40,24.9335,20174.7,-26267.6,33121.1,-52.474,1,1.2279e-07,0.555493,8,0.994477,0.331371,-143.627,0.0254154,0.0757512,1.00048e-05,-91.1526,1e-05,0.00100223,20174.7,-26267.6,33121.1,-52.474
42,15.7828,26512,-33749.1,42917.2,-51.8482,1,1.05348e-07,0.52725,8,0.995785,0.429374,-142.112,0.0449682,0.103452,1.00047e-05,-90.2636,1e-05,0.00120445,26512,-33749.1,42917.2,-51.8482
44,9.9734,34978.6,-43785,56041.3,-51.3797,1,1.78359e-07,0.471522,8,0.996412,0.560563,-141.078,0.0745349,0.131373,1.00027e-05,-89.6982,1e-05,0.00116321,34978.6,-43785,56041.3,-51.3797
46,6.2751,45585.4,-56126.3,72306.2,-50.9167,1,2.0457e-07,0.392251,8,0.997459,0.723452,-140.242,0.104073,0.14214,1.00054e-05,-89.3252,1e-05,0.00114012,45585.4,-56126.3,72306.2,-50.9167
48,3.93908,57023.9,-66806.2,87833.8,-49.5169,1,1.50045e-07,0.271654,8,0.998002,0.878473,-138.596,0.106557,0.119863,1.00015e-05,-89.0794,1e-05,0.000922839,57023.9,-66806.2,87833.8,-49.5169
50,2.48542,65834.5,-74869.1,99697.3,-48.6739,1,1.51175e-07,0.208769,8,0.969097,0.968147,179.051,0.0574014,0.058588,9.71087e-06,-132.275,1e-05,0.000314682,65834.5,-74869.1,99697.3,-48.6739
52,1.58361,74163.5,-81966.5,110538,-47.8611,1,1.34151e-07,0.141918,8,0.994477,1.11422,-163.289,0.0959531,0.0851007,1.008e-05,-115.428,1e-05,0.000449396,74163.5,-81966.5,110538,-47.8611
54,0.997765,83946.1,-88118.4,121704,-46.389,1,1.1179e-07,0.113012,8,0.998934,1.21913,-151.594,0.149099,0.120855,1.00172e-05,-105.205,1e-05,0.000394007,83946.1,-88118.4,121704,-46.389